key_resp.corr,trials.label,trials.startVal,trials.stepSizes,trials.maxVal,trials.minVal,trials.thisIndex,trials.thisRepN,trials.thisN,trials.direction,trials.stepSize,trials.stepType,trials.intensity,ISI.started,key_resp.started,grating.started,grating.stopped,trials.response,participant,session,date,expName,psychopyVersion,frameRate,
0,cont,0.05,"[0.01, 0.01, 0.005, 0.005]",1.0,0.0,0,1,0,start,0.01,db,0.05,1.0818754001520574,16.323993999976665,16.323993999976665,16.623996999580413,1,861341,001,2022-09-07_19h58.21.358,staircase task,2022.2.4,59.98605916163219,
1,cont,0.05,"[0.01, 0.01, 0.005, 0.005]",1.0,0.0,0,2,1,down,0.01,db,0.04994246849682526,0.0008098999969661236,18.840587799903005,18.840587799903005,19.14065369963646,1,861341,001,2022-09-07_19h58.21.358,staircase task,2022.2.4,59.98605916163219,
1,cont,0.05,"[0.01, 0.01, 0.005, 0.005]",1.0,0.0,0,3,2,down,0.01,db,0.049885003191127666,0.0008185999467968941,21.173653199803084,21.173653199803084,21.473822999745607,1,861341,001,2022-09-07_19h58.21.358,staircase task,2022.2.4,59.98605916163219,
1,cont,0.05,"[0.01, 0.01, 0.005, 0.005]",1.0,0.0,0,4,3,down,0.01,db,0.04982760400673841,0.0008769002743065357,23.573752199765295,23.573752199765295,23.873931299895048,1,861341,001,2022-09-07_19h58.21.358,staircase task,2022.2.4,59.98605916163219,
1,cont,0.05,"[0.01, 0.01, 0.005, 0.005]",1.0,0.0,0,5,4,down,0.01,db,0.04977027086757634,0.0008529000915586948,25.907212499994785,25.907212499994785,26.20732759963721,1,861341,001,2022-09-07_19h58.21.358,staircase task,2022.2.4,59.98605916163219,
1,cont,0.05,"[0.01, 0.01, 0.005, 0.005]",1.0,0.0,0,6,5,down,0.01,db,0.04971300369764783,0.000891499686986208,28.207368499599397,28.207368499599397,28.50737479981035,1,861341,001,2022-09-07_19h58.21.358,staircase task,2022.2.4,59.98605916163219,
1,cont,0.05,"[0.01, 0.01, 0.005, 0.005]",1.0,0.0,0,7,6,down,0.01,db,0.04965580242104668,0.000906399916857481,30.607138899620622,30.607138899620622,30.907397599890828,1,861341,001,2022-09-07_19h58.21.358,staircase task,2022.2.4,59.98605916163219,
1,cont,0.05,"[0.01, 0.01, 0.005, 0.005]",1.0,0.0,0,8,7,down,0.01,db,0.049598666961954065,0.0010611996985971928,32.907141299918294,32.907141299918294,33.20737989991903,1,861341,001,2022-09-07_19h58.21.358,staircase task,2022.2.4,59.98605916163219,
1,cont,0.05,"[0.01, 0.01, 0.005, 0.005]",1.0,0.0,0,9,8,down,0.01,db,0.04954159724463837,0.0008247997611761093,35.20718949986622,35.20718949986622,,1,861341,001,2022-09-07_19h58.21.358,staircase task,2022.2.4,59.98605916163219,
1,cont,0.05,"[0.01, 0.01, 0.005, 0.005]",1.0,0.0,0,10,9,down,0.01,db,0.049484593193455134,0.0008001998066902161,37.4738592999056,37.4738592999056,37.773945099674165,1,861341,001,2022-09-07_19h58.21.358,staircase task,2022.2.4,59.98605916163219,
1,cont,0.05,"[0.01, 0.01, 0.005, 0.005]",1.0,0.0,0,11,10,down,0.01,db,0.04942765473284693,0.0007744999602437019,39.7738298997283,39.7738298997283,40.07382579986006,1,861341,001,2022-09-07_19h58.21.358,staircase task,2022.2.4,59.98605916163219,
1,cont,0.05,"[0.01, 0.01, 0.005, 0.005]",1.0,0.0,0,12,11,down,0.01,db,0.04937078178734327,0.0007992000319063663,42.09058319963515,42.09058319963515,42.390474499668926,1,861341,001,2022-09-07_19h58.21.358,staircase task,2022.2.4,59.98605916163219,
1,cont,0.05,"[0.01, 0.01, 0.005, 0.005]",1.0,0.0,0,13,12,down,0.01,db,0.04931397428156051,0.0008411998860538006,44.40731669962406,44.40731669962406,44.707402899861336,1,861341,001,2022-09-07_19h58.21.358,staircase task,2022.2.4,59.98605916163219,
1,cont,0.05,"[0.01, 0.01, 0.005, 0.005]",1.0,0.0,0,14,13,down,0.01,db,0.04925723214020173,0.0008080997504293919,46.707335599698126,46.707335599698126,47.00725369993597,1,861341,001,2022-09-07_19h58.21.358,staircase task,2022.2.4,59.98605916163219,
1,cont,0.05,"[0.01, 0.01, 0.005, 0.005]",1.0,0.0,0,15,14,down,0.01,db,0.04920055528805667,0.0007798997685313225,49.073922799900174,49.073922799900174,49.37377329962328,1,861341,001,2022-09-07_19h58.21.358,staircase task,2022.2.4,59.98605916163219,
1,cont,0.05,"[0.01, 0.01, 0.005, 0.005]",1.0,0.0,0,16,15,down,0.01,db,0.04914394365000159,0.0008856002241373062,51.423988099675626,51.423988099675626,51.72398329991847,1,861341,001,2022-09-07_19h58.21.358,staircase task,2022.2.4,59.98605916163219,
1,cont,0.05,"[0.01, 0.01, 0.005, 0.005]",1.0,0.0,0,17,16,down,0.01,db,0.0490873971509992,0.0007250998169183731,53.74060619994998,53.74060619994998,54.041151099838316,1,861341,001,2022-09-07_19h58.21.358,staircase task,2022.2.4,59.98605916163219,
1,cont,0.05,"[0.01, 0.01, 0.005, 0.005]",1.0,0.0,0,18,17,down,0.01,db,0.04903091571609854,0.0007819999009370804,56.05721949972212,56.05721949972212,56.357204699888825,1,861341,001,2022-09-07_19h58.21.358,staircase task,2022.2.4,59.98605916163219,
1,cont,0.05,"[0.01, 0.01, 0.005, 0.005]",1.0,0.0,0,19,18,down,0.01,db,0.048974499270434915,0.0008062003180384636,58.424090299755335,58.424090299755335,,1,861341,001,2022-09-07_19h58.21.358,staircase task,2022.2.4,59.98605916163219,
1,cont,0.05,"[0.01, 0.01, 0.005, 0.005]",1.0,0.0,0,20,19,down,0.01,db,0.04891814773922974,0.0009794002398848534,60.707276499830186,60.707276499830186,61.00714479992166,1,861341,001,2022-09-07_19h58.21.358,staircase task,2022.2.4,59.98605916163219,
1,cont,0.05,"[0.01, 0.01, 0.005, 0.005]",1.0,0.0,0,21,20,down,0.01,db,0.0488618610477905,0.0008371002040803432,63.04071769956499,63.04071769956499,63.34067059960216,1,861341,001,2022-09-07_19h58.21.358,staircase task,2022.2.4,59.98605916163219,
1,cont,0.05,"[0.01, 0.01, 0.005, 0.005]",1.0,0.0,0,22,21,down,0.01,db,0.048805639121510605,0.0008369996212422848,65.44084019958973,65.44084019958973,65.74058709992096,1,861341,001,2022-09-07_19h58.21.358,staircase task,2022.2.4,59.98605916163219,
1,cont,0.05,"[0.01, 0.01, 0.005, 0.005]",1.0,0.0,0,23,22,down,0.01,db,0.04874948188586931,0.0008453000336885452,67.84083049977198,67.84083049977198,68.14057119982317,1,861341,001,2022-09-07_19h58.21.358,staircase task,2022.2.4,59.98605916163219,
1,cont,0.05,"[0.01, 0.01, 0.005, 0.005]",1.0,0.0,0,24,23,down,0.01,db,0.04869338926643163,0.000924800056964159,70.15713969990611,70.15713969990611,70.4573350995779,1,861341,001,2022-09-07_19h58.21.358,staircase task,2022.2.4,59.98605916163219,
1,cont,0.05,"[0.01, 0.01, 0.005, 0.005]",1.0,0.0,0,25,24,down,0.01,db,0.04863736118884821,0.0007560998201370239,72.50720919994637,72.50720919994637,72.80739499954507,1,861341,001,2022-09-07_19h58.21.358,staircase task,2022.2.4,59.98605916163219,
1,cont,0.05,"[0.01, 0.01, 0.005, 0.005]",1.0,0.0,0,26,25,down,0.01,db,0.04858139757885526,0.0008455999195575714,74.84078079974279,74.84078079974279,75.14060439961031,1,861341,001,2022-09-07_19h58.21.358,staircase task,2022.2.4,59.98605916163219,
1,cont,0.05,"[0.01, 0.01, 0.005, 0.005]",1.0,0.0,0,27,26,down,0.01,db,0.04852549836227443,0.0007668999023735523,77.19061299972236,77.19061299972236,77.49078689981252,1,861341,001,2022-09-07_19h58.21.358,staircase task,2022.2.4,59.98605916163219,
1,cont,0.05,"[0.01, 0.01, 0.005, 0.005]",1.0,0.0,0,28,27,down,0.01,db,0.048469663465012726,0.0007946998812258244,79.50742959976196,79.50742959976196,79.80739709967747,1,861341,001,2022-09-07_19h58.21.358,staircase task,2022.2.4,59.98605916163219,
1,cont,0.05,"[0.01, 0.01, 0.005, 0.005]",1.0,0.0,0,29,28,down,0.01,db,0.0484138928130624,0.0007958998903632164,81.84059939999133,81.84059939999133,82.1405242998153,1,861341,001,2022-09-07_19h58.21.358,staircase task,2022.2.4,59.98605916163219,
1,cont,0.05,"[0.01, 0.01, 0.005, 0.005]",1.0,0.0,0,30,29,down,0.01,db,0.04835818633250087,0.0009003998711705208,84.29107809998095,84.29107809998095,84.590509200003,1,861341,001,2022-09-07_19h58.21.358,staircase task,2022.2.4,59.98605916163219,
1,cont,0.05,"[0.01, 0.01, 0.005, 0.005]",1.0,0.0,0,31,30,down,0.01,db,0.04830254394949061,0.0007994999177753925,86.60739249968901,86.60739249968901,86.90741319954395,1,861341,001,2022-09-07_19h58.21.358,staircase task,2022.2.4,59.98605916163219,
1,cont,0.05,"[0.01, 0.01, 0.005, 0.005]",1.0,0.0,0,32,31,down,0.01,db,0.04824696559027904,0.0008522002026438713,89.00761449988931,89.00761449988931,89.30732979997993,1,861341,001,2022-09-07_19h58.21.358,staircase task,2022.2.4,59.98605916163219,
1,cont,0.05,"[0.01, 0.01, 0.005, 0.005]",1.0,0.0,0,33,32,down,0.01,db,0.048191451181198455,0.0008200001902878284,91.3404943998903,91.3404943998903,91.64074780000374,1,861341,001,2022-09-07_19h58.21.358,staircase task,2022.2.4,59.98605916163219,
1,cont,0.05,"[0.01, 0.01, 0.005, 0.005]",1.0,0.0,0,34,33,down,0.01,db,0.04813600064866592,0.0007843999192118645,93.70724339969456,93.70724339969456,94.00720719993114,1,861341,001,2022-09-07_19h58.21.358,staircase task,2022.2.4,59.98605916163219,
1,cont,0.05,"[0.01, 0.01, 0.005, 0.005]",1.0,0.0,0,35,34,down,0.01,db,0.048080613919183154,0.0008141999132931232,96.0407893997617,96.0407893997617,,1,861341,001,2022-09-07_19h58.21.358,staircase task,2022.2.4,59.98605916163219,
1,cont,0.05,"[0.01, 0.01, 0.005, 0.005]",1.0,0.0,0,36,35,down,0.01,db,0.04802529091933645,0.0007540998049080372,98.32397489994764,98.32397489994764,98.62387739960104,1,861341,001,2022-09-07_19h58.21.358,staircase task,2022.2.4,59.98605916163219,
1,cont,0.05,"[0.01, 0.01, 0.005, 0.005]",1.0,0.0,0,37,36,down,0.01,db,0.04797003157579657,0.0008026999421417713,100.69079859973863,100.69079859973863,100.99060499994084,1,861341,001,2022-09-07_19h58.21.358,staircase task,2022.2.4,59.98605916163219,
1,cont,0.05,"[0.01, 0.01, 0.005, 0.005]",1.0,0.0,0,38,37,down,0.01,db,0.04791483581531866,0.0009159999899566174,103.00753879966214,103.00753879966214,103.30770719982684,1,861341,001,2022-09-07_19h58.21.358,staircase task,2022.2.4,59.98605916163219,
1,cont,0.05,"[0.01, 0.01, 0.005, 0.005]",1.0,0.0,0,39,38,down,0.01,db,0.04785970356474213,0.0008093998767435551,105.32391419960186,105.32391419960186,105.62387719983235,1,861341,001,2022-09-07_19h58.21.358,staircase task,2022.2.4,59.98605916163219,
1,cont,0.05,"[0.01, 0.01, 0.005, 0.005]",1.0,0.0,0,40,39,down,0.01,db,0.04780463475099059,0.0008330997079610825,107.64066229993477,107.64066229993477,107.94094679970294,1,861341,001,2022-09-07_19h58.21.358,staircase task,2022.2.4,59.98605916163219,
1,cont,0.05,"[0.01, 0.01, 0.005, 0.005]",1.0,0.0,0,41,40,down,0.01,db,0.047749629301071704,0.0008176001720130444,110.024269499816,110.024269499816,110.32415619958192,1,861341,001,2022-09-07_19h58.21.358,staircase task,2022.2.4,59.98605916163219,
1,cont,0.05,"[0.01, 0.01, 0.005, 0.005]",1.0,0.0,0,42,41,down,0.01,db,0.047694687142077155,0.0009180000051856041,112.32389479968697,112.32389479968697,112.6240620999597,1,861341,001,2022-09-07_19h58.21.358,staircase task,2022.2.4,59.98605916163219,
1,cont,0.05,"[0.01, 0.01, 0.005, 0.005]",1.0,0.0,0,43,42,down,0.01,db,0.0476398082011825,0.0009364001452922821,114.62418609997258,114.62418609997258,,1,861341,001,2022-09-07_19h58.21.358,staircase task,2022.2.4,59.98605916163219,
1,cont,0.05,"[0.01, 0.01, 0.005, 0.005]",1.0,0.0,0,44,43,down,0.01,db,0.047584992405647085,0.0008151000365614891,116.90744779957458,116.90744779957458,117.20727179991081,1,861341,001,2022-09-07_19h58.21.358,staircase task,2022.2.4,59.98605916163219,
1,cont,0.05,"[0.01, 0.01, 0.005, 0.005]",1.0,0.0,0,45,44,down,0.01,db,0.04753023968281397,0.0008412003517150879,119.22414209973067,119.22414209973067,119.5245147999376,1,861341,001,2022-09-07_19h58.21.358,staircase task,2022.2.4,59.98605916163219,
1,cont,0.05,"[0.01, 0.01, 0.005, 0.005]",1.0,0.0,0,46,45,down,0.01,db,0.0474755499601098,0.0008352999575436115,121.55723829986528,121.55723829986528,121.85722259990871,1,861341,001,2022-09-07_19h58.21.358,staircase task,2022.2.4,59.98605916163219,
1,cont,0.05,"[0.01, 0.01, 0.005, 0.005]",1.0,0.0,0,47,46,down,0.01,db,0.047420923165044745,0.0009439000859856606,123.87410029955208,123.87410029955208,124.1743506998755,1,861341,001,2022-09-07_19h58.21.358,staircase task,2022.2.4,59.98605916163219,
1,cont,0.05,"[0.01, 0.01, 0.005, 0.005]",1.0,0.0,0,48,47,down,0.01,db,0.04736635922521236,0.0008257003501057625,126.17389829969034,126.17389829969034,,1,861341,001,2022-09-07_19h58.21.358,staircase task,2022.2.4,59.98605916163219,
1,cont,0.05,"[0.01, 0.01, 0.005, 0.005]",1.0,0.0,0,49,48,down,0.01,db,0.04731185806828953,0.0008105998858809471,128.45721669960767,128.45721669960767,128.75723919970915,1,861341,001,2022-09-07_19h58.21.358,staircase task,2022.2.4,59.98605916163219,
1,cont,0.05,"[0.01, 0.01, 0.005, 0.005]",1.0,0.0,0,50,49,down,0.01,db,0.047257419622036355,0.0008509000763297081,130.77406529989094,130.77406529989094,131.07404039986432,1,861341,001,2022-09-07_19h58.21.358,staircase task,2022.2.4,59.98605916163219,
1,cont,0.05,"[0.01, 0.01, 0.005, 0.005]",1.0,0.0,0,51,50,down,0.01,db,0.04720304381429605,0.0007858998142182827,133.14063979964703,133.14063979964703,133.44076009979472,1,861341,001,2022-09-07_19h58.21.358,staircase task,2022.2.4,59.98605916163219,
1,cont,0.05,"[0.01, 0.01, 0.005, 0.005]",1.0,0.0,0,52,51,down,0.01,db,0.04714873057299485,0.0008136001415550709,135.49079069960862,135.49079069960862,135.79080869955942,1,861341,001,2022-09-07_19h58.21.358,staircase task,2022.2.4,59.98605916163219,
1,cont,0.05,"[0.01, 0.01, 0.005, 0.005]",1.0,0.0,0,53,52,down,0.01,db,0.04709447982614194,0.0008123000152409077,137.89092009980232,137.89092009980232,138.19065029965714,1,861341,001,2022-09-07_19h58.21.358,staircase task,2022.2.4,59.98605916163219,
1,cont,0.05,"[0.01, 0.01, 0.005, 0.005]",1.0,0.0,0,54,53,down,0.01,db,0.047040291501829326,0.0008943001739680767,140.24086809996516,140.24086809996516,140.54069349961355,1,861341,001,2022-09-07_19h58.21.358,staircase task,2022.2.4,59.98605916163219,
1,cont,0.05,"[0.01, 0.01, 0.005, 0.005]",1.0,0.0,0,55,54,down,0.01,db,0.04698616552823176,0.0007478003390133381,142.54089879989624,142.54089879989624,142.84062689961866,1,861341,001,2022-09-07_19h58.21.358,staircase task,2022.2.4,59.98605916163219,
1,cont,0.05,"[0.01, 0.01, 0.005, 0.005]",1.0,0.0,0,56,55,down,0.01,db,0.04693210183360663,0.0009194002486765385,144.8907770998776,144.8907770998776,145.1906689996831,1,861341,001,2022-09-07_19h58.21.358,staircase task,2022.2.4,59.98605916163219,
1,cont,0.05,"[0.01, 0.01, 0.005, 0.005]",1.0,0.0,0,57,56,down,0.01,db,0.04687810034629388,0.0009298999793827534,147.19067279994488,147.19067279994488,147.49055709969252,1,861341,001,2022-09-07_19h58.21.358,staircase task,2022.2.4,59.98605916163219,
1,cont,0.05,"[0.01, 0.01, 0.005, 0.005]",1.0,0.0,0,58,57,down,0.01,db,0.046824160994715903,0.0008657998405396938,149.5741130998358,149.5741130998358,149.8741406998597,1,861341,001,2022-09-07_19h58.21.358,staircase task,2022.2.4,59.98605916163219,
1,cont,0.05,"[0.01, 0.01, 0.005, 0.005]",1.0,0.0,0,59,58,down,0.01,db,0.04677028370737746,0.0008475002832710743,151.87420599954203,151.87420599954203,152.17415370000526,1,861341,001,2022-09-07_19h58.21.358,staircase task,2022.2.4,59.98605916163219,
1,cont,0.05,"[0.01, 0.01, 0.005, 0.005]",1.0,0.0,0,60,59,down,0.01,db,0.046716468412865565,0.0009070001542568207,154.20734209986404,154.20734209986404,154.50727529963478,1,861341,001,2022-09-07_19h58.21.358,staircase task,2022.2.4,59.98605916163219,
1,cont,0.05,"[0.01, 0.01, 0.005, 0.005]",1.0,0.0,0,61,60,down,0.01,db,0.04666271503984941,0.0008510998450219631,156.50724899955094,156.50724899955094,,1,861341,001,2022-09-07_19h58.21.358,staircase task,2022.2.4,59.98605916163219,
1,cont,0.05,"[0.01, 0.01, 0.005, 0.005]",1.0,0.0,0,62,61,down,0.01,db,0.04660902351708026,0.0008676000870764256,158.7741708997637,158.7741708997637,159.0740154995583,0,861341,001,2022-09-07_19h58.21.358,staircase task,2022.2.4,59.98605916163219,
0,cont,0.05,"[0.01, 0.01, 0.005, 0.005]",1.0,0.0,0,63,62,up,0.01,db,0.04666271503984941,0.0009144996292889118,161.074036099948,161.074036099948,161.37394839990884,1,861341,001,2022-09-07_19h58.21.358,staircase task,2022.2.4,59.98605916163219,
1,cont,0.05,"[0.01, 0.01, 0.005, 0.005]",1.0,0.0,0,64,63,up,0.01,db,0.04666271503984941,0.0009330003522336483,163.39087149966508,163.39087149966508,163.6907489998266,1,861341,001,2022-09-07_19h58.21.358,staircase task,2022.2.4,59.98605916163219,
1,cont,0.05,"[0.01, 0.01, 0.005, 0.005]",1.0,0.0,0,65,64,up,0.01,db,0.04666271503984941,0.0009126998484134674,165.7578651998192,165.7578651998192,166.05752159981057,1,861341,001,2022-09-07_19h58.21.358,staircase task,2022.2.4,59.98605916163219,
1,cont,0.05,"[0.01, 0.01, 0.005, 0.005]",1.0,0.0,0,66,65,down,0.005,db,0.04663586155163381,0.0008062999695539474,168.10730099957436,168.10730099957436,168.40749369980767,1,861341,001,2022-09-07_19h58.21.358,staircase task,2022.2.4,59.98605916163219,
1,cont,0.05,"[0.01, 0.01, 0.005, 0.005]",1.0,0.0,0,67,66,down,0.005,db,0.04663586155163381,0.0008598999120295048,170.42407469963655,170.42407469963655,170.72395679960027,1,861341,001,2022-09-07_19h58.21.358,staircase task,2022.2.4,59.98605916163219,
1,cont,0.05,"[0.01, 0.01, 0.005, 0.005]",1.0,0.0,0,68,67,down,0.005,db,0.04663586155163381,0.0008040000684559345,172.74075559992343,172.74075559992343,173.0406365999952,1,861341,001,2022-09-07_19h58.21.358,staircase task,2022.2.4,59.98605916163219,
1,cont,0.05,"[0.01, 0.01, 0.005, 0.005]",1.0,0.0,0,69,68,down,0.005,db,0.046609023517080274,0.000901899766176939,175.09070199960843,175.09070199960843,175.39051689999178,1,861341,001,2022-09-07_19h58.21.358,staircase task,2022.2.4,59.98605916163219,
1,cont,0.05,"[0.01, 0.01, 0.005, 0.005]",1.0,0.0,0,70,69,down,0.005,db,0.046609023517080274,0.0009385999292135239,177.40747329965234,177.40747329965234,177.70736050000414,1,861341,001,2022-09-07_19h58.21.358,staircase task,2022.2.4,59.98605916163219,
1,cont,0.05,"[0.01, 0.01, 0.005, 0.005]",1.0,0.0,0,71,70,down,0.005,db,0.046609023517080274,0.0008052000775933266,179.7406808999367,179.7406808999367,180.0408695996739,1,861341,001,2022-09-07_19h58.21.358,staircase task,2022.2.4,59.98605916163219,
1,cont,0.05,"[0.01, 0.01, 0.005, 0.005]",1.0,0.0,0,72,71,down,0.005,db,0.04658220092729552,0.0008742003701627254,182.05729809962213,182.05729809962213,182.35735599976033,1,861341,001,2022-09-07_19h58.21.358,staircase task,2022.2.4,59.98605916163219,
1,cont,0.05,"[0.01, 0.01, 0.005, 0.005]",1.0,0.0,0,73,72,down,0.005,db,0.04658220092729552,0.0008896999061107635,184.3906502998434,184.3906502998434,184.69085599994287,1,861341,001,2022-09-07_19h58.21.358,staircase task,2022.2.4,59.98605916163219,
1,cont,0.05,"[0.01, 0.01, 0.005, 0.005]",1.0,0.0,0,74,73,down,0.005,db,0.04658220092729552,0.0008698999881744385,186.7243722998537,186.7243722998537,187.0240479996428,1,861341,001,2022-09-07_19h58.21.358,staircase task,2022.2.4,59.98605916163219,
1,cont,0.05,"[0.01, 0.01, 0.005, 0.005]",1.0,0.0,0,75,74,down,0.005,db,0.046555393773391386,0.0008499999530613422,189.04064019955695,189.04064019955695,189.34088309993967,1,861341,001,2022-09-07_19h58.21.358,staircase task,2022.2.4,59.98605916163219,
1,cont,0.05,"[0.01, 0.01, 0.005, 0.005]",1.0,0.0,0,76,75,down,0.005,db,0.046555393773391386,0.0008459999226033688,191.37396669993177,191.37396669993177,191.6741519998759,1,861341,001,2022-09-07_19h58.21.358,staircase task,2022.2.4,59.98605916163219,
1,cont,0.05,"[0.01, 0.01, 0.005, 0.005]",1.0,0.0,0,77,76,down,0.005,db,0.046555393773391386,0.0009023998863995075,193.74065249972045,193.74065249972045,194.04086149996147,1,861341,001,2022-09-07_19h58.21.358,staircase task,2022.2.4,59.98605916163219,
1,cont,0.05,"[0.01, 0.01, 0.005, 0.005]",1.0,0.0,0,78,77,down,0.005,db,0.04652860204648482,0.0007994999177753925,196.05776489991695,196.05776489991695,196.35718839988112,1,861341,001,2022-09-07_19h58.21.358,staircase task,2022.2.4,59.98605916163219,
1,cont,0.05,"[0.01, 0.01, 0.005, 0.005]",1.0,0.0,0,79,78,down,0.005,db,0.04652860204648482,0.0008256002329289913,198.3904552999884,198.3904552999884,,1,861341,001,2022-09-07_19h58.21.358,staircase task,2022.2.4,59.98605916163219,
1,cont,0.05,"[0.01, 0.01, 0.005, 0.005]",1.0,0.0,0,80,79,down,0.005,db,0.04652860204648482,0.0008817999623715878,200.67397149978206,200.67397149978206,200.97379079973325,1,861341,001,2022-09-07_19h58.21.358,staircase task,2022.2.4,59.98605916163219,
1,cont,0.05,"[0.01, 0.01, 0.005, 0.005]",1.0,0.0,0,81,80,down,0.005,db,0.046501825737697886,0.0008036000654101372,202.9908810998313,202.9908810998313,,1,861341,001,2022-09-07_19h58.21.358,staircase task,2022.2.4,59.98605916163219,
1,cont,0.05,"[0.01, 0.01, 0.005, 0.005]",1.0,0.0,0,82,81,down,0.005,db,0.046501825737697886,0.000802499707788229,205.27399469958618,205.27399469958618,,1,861341,001,2022-09-07_19h58.21.358,staircase task,2022.2.4,59.98605916163219,
1,cont,0.05,"[0.01, 0.01, 0.005, 0.005]",1.0,0.0,0,83,82,down,0.005,db,0.046501825737697886,0.0008307998068630695,207.55757219996303,207.55757219996303,207.85731289954856,1,861341,001,2022-09-07_19h58.21.358,staircase task,2022.2.4,59.98605916163219,
1,cont,0.05,"[0.01, 0.01, 0.005, 0.005]",1.0,0.0,0,84,83,down,0.005,db,0.04647506483815775,0.0009196000173687935,209.9075157996267,209.9075157996267,210.20747109968215,1,861341,001,2022-09-07_19h58.21.358,staircase task,2022.2.4,59.98605916163219,
1,cont,0.05,"[0.01, 0.01, 0.005, 0.005]",1.0,0.0,0,85,84,down,0.005,db,0.04647506483815775,0.0008372999727725983,212.25741419987753,212.25741419987753,212.55756230000407,1,861341,001,2022-09-07_19h58.21.358,staircase task,2022.2.4,59.98605916163219,
1,cont,0.05,"[0.01, 0.01, 0.005, 0.005]",1.0,0.0,0,86,85,down,0.005,db,0.04647506483815775,0.0007540998049080372,214.59096519974992,214.59096519974992,214.8908245996572,1,861341,001,2022-09-07_19h58.21.358,staircase task,2022.2.4,59.98605916163219,
1,cont,0.05,"[0.01, 0.01, 0.005, 0.005]",1.0,0.0,0,87,86,down,0.005,db,0.046448319338996694,0.0008360003121197224,216.924200899899,216.924200899899,217.22406119992957,1,861341,001,2022-09-07_19h58.21.358,staircase task,2022.2.4,59.98605916163219,
1,cont,0.05,"[0.01, 0.01, 0.005, 0.005]",1.0,0.0,0,88,87,down,0.005,db,0.046448319338996694,0.0008979002013802528,219.39091769978404,219.39091769978404,219.6908935997635,1,861341,001,2022-09-07_19h58.21.358,staircase task,2022.2.4,59.98605916163219,
1,cont,0.05,"[0.01, 0.01, 0.005, 0.005]",1.0,0.0,0,89,88,down,0.005,db,0.046448319338996694,0.0008314000442624092,221.80751419998705,221.80751419998705,222.10734679969028,1,861341,001,2022-09-07_19h58.21.358,staircase task,2022.2.4,59.98605916163219,
1,cont,0.05,"[0.01, 0.01, 0.005, 0.005]",1.0,0.0,0,90,89,down,0.005,db,0.046421589231352096,0.0008573001250624657,224.17405619984493,224.17405619984493,,1,861341,001,2022-09-07_19h58.21.358,staircase task,2022.2.4,59.98605916163219,
1,cont,0.05,"[0.01, 0.01, 0.005, 0.005]",1.0,0.0,0,91,90,down,0.005,db,0.046421589231352096,0.0008025001734495163,226.4576640999876,226.4576640999876,226.75754159968346,1,861341,001,2022-09-07_19h58.21.358,staircase task,2022.2.4,59.98605916163219,
1,cont,0.05,"[0.01, 0.01, 0.005, 0.005]",1.0,0.0,0,92,91,down,0.005,db,0.046421589231352096,0.0008227000944316387,228.8074554996565,228.8074554996565,,1,861341,001,2022-09-07_19h58.21.358,staircase task,2022.2.4,59.98605916163219,
1,cont,0.05,"[0.01, 0.01, 0.005, 0.005]",1.0,0.0,0,93,92,down,0.005,db,0.04639487450636644,0.0009240000508725643,231.05765979969874,231.05765979969874,231.3575407997705,1,861341,001,2022-09-07_19h58.21.358,staircase task,2022.2.4,59.98605916163219,
1,cont,0.05,"[0.01, 0.01, 0.005, 0.005]",1.0,0.0,0,94,93,down,0.005,db,0.04639487450636644,0.0008239001035690308,233.40761789958924,233.40761789958924,233.7076241998002,1,861341,001,2022-09-07_19h58.21.358,staircase task,2022.2.4,59.98605916163219,
1,cont,0.05,"[0.01, 0.01, 0.005, 0.005]",1.0,0.0,0,95,94,down,0.005,db,0.04639487450636644,0.0008906000293791294,235.72403919976205,235.72403919976205,236.02415709989145,1,861341,001,2022-09-07_19h58.21.358,staircase task,2022.2.4,59.98605916163219,
1,cont,0.05,"[0.01, 0.01, 0.005, 0.005]",1.0,0.0,0,96,95,down,0.005,db,0.0463681751551873,0.0010632998310029507,238.0745697999373,238.0745697999373,238.37419679993764,1,861341,001,2022-09-07_19h58.21.358,staircase task,2022.2.4,59.98605916163219,
1,cont,0.05,"[0.01, 0.01, 0.005, 0.005]",1.0,0.0,0,97,96,down,0.005,db,0.0463681751551873,0.0007875002920627594,240.42422669986263,240.42422669986263,240.72428889991716,1,861341,001,2022-09-07_19h58.21.358,staircase task,2022.2.4,59.98605916163219,
1,cont,0.05,"[0.01, 0.01, 0.005, 0.005]",1.0,0.0,0,98,97,down,0.005,db,0.0463681751551873,0.0007813000120222569,242.80744609981775,242.80744609981775,243.10737039986998,1,861341,001,2022-09-07_19h58.21.358,staircase task,2022.2.4,59.98605916163219,
1,cont,0.05,"[0.01, 0.01, 0.005, 0.005]",1.0,0.0,0,99,98,down,0.005,db,0.046341491168967346,0.0007828003726899624,245.1907616998069,245.1907616998069,245.4908952997066,1,861341,001,2022-09-07_19h58.21.358,staircase task,2022.2.4,59.98605916163219,
1,cont,0.05,"[0.01, 0.01, 0.005, 0.005]",1.0,0.0,0,100,99,down,0.005,db,0.046341491168967346,0.0007559000514447689,247.55766199994832,247.55766199994832,247.85750869987532,1,861341,001,2022-09-07_19h58.21.358,staircase task,2022.2.4,59.98605916163219,
1,cont,0.05,"[0.01, 0.01, 0.005, 0.005]",1.0,0.0,0,101,100,down,0.005,db,0.046341491168967346,0.0008003995753824711,249.89108059974387,249.89108059974387,250.19112579990178,1,861341,001,2022-09-07_19h58.21.358,staircase task,2022.2.4,59.98605916163219,
1,cont,0.05,"[0.01, 0.01, 0.005, 0.005]",1.0,0.0,0,102,101,down,0.005,db,0.04631482253886435,0.0007890998385846615,252.24085949966684,252.24085949966684,252.54101759986952,1,861341,001,2022-09-07_19h58.21.358,staircase task,2022.2.4,59.98605916163219,
1,cont,0.05,"[0.01, 0.01, 0.005, 0.005]",1.0,0.0,0,103,102,down,0.005,db,0.04631482253886435,0.0008295997977256775,254.55764739960432,254.55764739960432,254.8576170997694,1,861341,001,2022-09-07_19h58.21.358,staircase task,2022.2.4,59.98605916163219,
1,cont,0.05,"[0.01, 0.01, 0.005, 0.005]",1.0,0.0,0,104,103,down,0.005,db,0.04631482253886435,0.0007579000666737556,256.90766509994864,256.90766509994864,257.2076372997835,1,861341,001,2022-09-07_19h58.21.358,staircase task,2022.2.4,59.98605916163219,
1,cont,0.05,"[0.01, 0.01, 0.005, 0.005]",1.0,0.0,0,105,104,down,0.005,db,0.04628816925604116,0.0007717995904386044,259.29077419964597,259.29077419964597,259.5908402996138,1,861341,001,2022-09-07_19h58.21.358,staircase task,2022.2.4,59.98605916163219,
1,cont,0.05,"[0.01, 0.01, 0.005, 0.005]",1.0,0.0,0,106,105,down,0.005,db,0.04628816925604116,0.0008758003823459148,261.62427249969915,261.62427249969915,261.9241938996129,1,861341,001,2022-09-07_19h58.21.358,staircase task,2022.2.4,59.98605916163219,
1,cont,0.05,"[0.01, 0.01, 0.005, 0.005]",1.0,0.0,0,107,106,down,0.005,db,0.04628816925604116,0.0008036000654101372,263.9407660998404,263.9407660998404,264.240852299612,1,861341,001,2022-09-07_19h58.21.358,staircase task,2022.2.4,59.98605916163219,
1,cont,0.05,"[0.01, 0.01, 0.005, 0.005]",1.0,0.0,0,108,107,down,0.005,db,0.04626153131166571,0.0008425000123679638,266.27430179994553,266.27430179994553,266.57433519978076,1,861341,001,2022-09-07_19h58.21.358,staircase task,2022.2.4,59.98605916163219,
1,cont,0.05,"[0.01, 0.01, 0.005, 0.005]",1.0,0.0,0,109,108,down,0.005,db,0.04626153131166571,0.0008776001632213593,268.57427369989455,268.57427369989455,268.8744594999589,1,861341,001,2022-09-07_19h58.21.358,staircase task,2022.2.4,59.98605916163219,
1,cont,0.05,"[0.01, 0.01, 0.005, 0.005]",1.0,0.0,0,110,109,down,0.005,db,0.04626153131166571,0.0008018999360501766,270.8742951997556,270.8742951997556,271.1742085996084,1,861341,001,2022-09-07_19h58.21.358,staircase task,2022.2.4,59.98605916163219,
1,cont,0.05,"[0.01, 0.01, 0.005, 0.005]",1.0,0.0,0,111,110,down,0.005,db,0.04623490869691102,0.001408199779689312,273.2243130998686,273.2243130998686,273.5241433996707,1,861341,001,2022-09-07_19h58.21.358,staircase task,2022.2.4,59.98605916163219,
1,cont,0.05,"[0.01, 0.01, 0.005, 0.005]",1.0,0.0,0,112,111,down,0.005,db,0.04623490869691102,0.0008072000928223133,275.5407961998135,275.5407961998135,275.84093839954585,1,861341,001,2022-09-07_19h58.21.358,staircase task,2022.2.4,59.98605916163219,
1,cont,0.05,"[0.01, 0.01, 0.005, 0.005]",1.0,0.0,0,113,112,down,0.005,db,0.04623490869691102,0.00083580007776618,277.87421979987994,277.87421979987994,278.17411389993504,0,861341,001,2022-09-07_19h58.21.358,staircase task,2022.2.4,59.98605916163219,
0,cont,0.05,"[0.01, 0.01, 0.005, 0.005]",1.0,0.0,0,114,113,up,0.005,db,0.04626153131166571,0.0007674000225961208,280.2410160996951,280.2410160996951,280.5408724998124,1,861341,001,2022-09-07_19h58.21.358,staircase task,2022.2.4,59.98605916163219,
1,cont,0.05,"[0.01, 0.01, 0.005, 0.005]",1.0,0.0,0,115,114,up,0.005,db,0.04626153131166571,0.0009383000433444977,282.6076303999871,282.6076303999871,282.90759339975193,1,861341,001,2022-09-07_19h58.21.358,staircase task,2022.2.4,59.98605916163219,
1,cont,0.05,"[0.01, 0.01, 0.005, 0.005]",1.0,0.0,0,116,115,up,0.005,db,0.04626153131166571,0.0008669998496770859,284.9907915997319,284.9907915997319,285.29075179994106,1,861341,001,2022-09-07_19h58.21.358,staircase task,2022.2.4,59.98605916163219,
